File: data/pca/marked.nor
# XDI/1.0 Demeter/0.9.26
# Demeter.output_filetype: multicolumn normalized mu(E)
# Element.symbol: Cu
# Element.edge: K
# Column.1: energy eV
# Column.2: cufoil_abs
# Column.3: cu2o_abs
# Column.4: cuo_abs
#------------------------
#  energy  cufoil_abs  cu2o_abs  cuo_abs
  8770.2       0.00118781  -0.00496239   0.0117661
  8780.21       0.00136975  -0.00352311   0.0110455
  8790.21       0.00114231  -0.00259331   0.00998997
  8800.21       0.000587828  -0.00138438   0.0107896
  8810.2       0.000648067  -0.00117902   0.0054037
  8820.23       0.000994208  -0.00333237   0.00303956
  8830.21       0.000331988  -0.00100201   0.00116875
  8840.2       0.000253738  -0.000792083   0.00153685
  8850.21       0.000118548  -0.000542606  -0.00122292
  8860.21       0.000315056  -0.00145095  -0.00158079
  8870.21      -0.000147808   0.000931364  -0.00065885
  8880.21      -0.000336263   0.00138194  -0.000330929
  8890.2      -0.000636213   0.00177485  -0.000178107
  8900.22      -0.000932224   0.00250989   0.000426232
  8910.2      -0.000534819   0.00132631   0.000944647
  8920.21       0.000222304  -0.000212993   0.00204086
  8930.21       0.00134569  -0.00184183   0.00337958
  8940.21       0.00247922  -0.00208165   0.00621095
  8950.2       0.00392784   0.000136416   0.0100614
  8950.7       0.00427971  -0.000252894   0.0102556
  8951.2       0.00435347   0.000227172   0.0108451
  8951.73       0.00451383   0.000327543   0.0112235
  8952.22       0.00461709   0.000517127   0.0114591
  8952.72       0.00480338   0.000247249   0.012009
  8953.22       0.00506319   5.18358e-05   0.0124134
  8953.72       0.0050552   0.000672324   0.0130482
  8954.22       0.0052875   0.000837791   0.0133826
  8954.71       0.00547448   0.00085731   0.0136985
  8955.21       0.00557654   0.0013039   0.014118
  8955.71       0.00557339   0.00193603   0.0145274
  8956.21       0.00595563   0.00135051   0.0147058
  8956.7       0.00617685   0.00161797   0.0152865
  8957.2       0.00637392   0.00169187   0.0156323
  8957.7       0.00652942   0.00202196   0.0161604
  8958.2       0.00675736   0.002115   0.0163642
  8958.7       0.00694869   0.00246438   0.0168179
  8959.23       0.00729668   0.0023888   0.0174988
  8959.72       0.00763459   0.00263857   0.0179853
  8960.22       0.00787855   0.00285378   0.0183842
  8960.72       0.00812796   0.00315165   0.0187744
  8961.22       0.00840272   0.00345749   0.0193194
  8961.72       0.00877189   0.00393828   0.0200483
  8962.22       0.0091078   0.00415297   0.0205416
  8962.72       0.00945667   0.00453734   0.021159
  8963.22       0.00980089   0.0049207   0.0218038
  8963.71       0.0102142   0.00541067   0.0225012
  8964.21       0.0106828   0.00595073   0.0233478
  8964.71       0.0110882   0.00640409   0.023984
  8965.21       0.0116737   0.00691919   0.0247083
  8965.71       0.0121721   0.00745777   0.0257695
  8966.21       0.0128823   0.00812367   0.0265713
  8966.71       0.0135745   0.00890049   0.0276551
  8967.21       0.0143381   0.00967226   0.028668
  8967.71       0.0149872   0.0103254   0.0301858
  8968.21       0.0158413   0.0111449   0.0315301
  8968.71       0.0167665   0.0120323   0.0326213
  8969.21       0.0178713   0.0130763   0.0337814
  8969.71       0.0192782   0.0144315   0.0354689
  8970.2       0.0210522   0.0160127   0.0370082
  8970.7       0.0229424   0.0176158   0.038692
  8971.2       0.024741   0.0192545   0.0407098
  8971.7       0.0270507   0.0211439   0.0431793
  8972.2       0.0297721   0.0233624   0.0452807
  8972.7       0.0333029   0.0260644   0.0476587
  8973.2       0.0383996   0.0298744   0.0512609
  8973.7       0.0457448   0.0347002   0.0564714
  8974.2       0.0552733   0.0404629   0.0634817
  8974.71       0.0677781   0.0463288   0.0726193
  8975.21       0.0867919   0.0543466   0.0804933
  8975.71       0.119494       0.065861   0.0866645
  8976.21       0.179452       0.0830552   0.0899231
  8976.71       0.284259       0.108689       0.0944064
  8977.21       0.375538       0.195317       0.104132
  8977.71       0.436221       0.291741       0.121066
  8978.21       0.463917       0.414993       0.138334
  8978.71       0.487165       0.519682       0.154914
  8979.21       0.479794       0.597963       0.173562
  8979.71       0.471505       0.599821       0.202498
  8980.21       0.461207       0.545327       0.258121
  8980.71       0.45824       0.49025       0.331869
  8981.21       0.461753       0.468938       0.417015
  8981.72       0.474468       0.465614       0.488984
  8982.22       0.492509       0.475173       0.539766
  8982.72       0.515836       0.492305       0.584648
  8983.22       0.540409       0.51641       0.6118
  8983.72       0.554048       0.557127       0.621762
  8984.22       0.577178       0.58759       0.621013
  8984.72       0.600792       0.615221       0.623316
  8985.23       0.626651       0.640622       0.637565
  8985.73       0.656214       0.667507       0.660891
  8986.2       0.684455       0.698269       0.691716
  8986.7       0.722555       0.729621       0.730377
  8987.2       0.772079       0.764023       0.773158
  8987.7       0.820183       0.806887       0.820448
  8988.21       0.861662       0.848741       0.876948
  8988.71       0.901354       0.8874       0.927694
  8989.21       0.933822       0.936066       0.969838
  8989.71       0.967802       0.98273        1.00377
  8990.21       0.997371        1.02973        1.02929
  8990.72        1.02057        1.06757        1.04938
  8991.22        1.03045        1.08938        1.06835
  8991.72        1.0257        1.10373        1.08673
  8992.22        1.01664        1.11464        1.10375
  8992.73        1.0041        1.12351        1.11985
  8993.2       0.991358        1.12946        1.13566
  8993.7       0.975028        1.13079        1.15325
  8994.2       0.958584        1.12156        1.17282
  8994.71       0.945414        1.10003        1.18921
  8995.21       0.93696        1.07786        1.19519
  8995.71       0.930299        1.05838        1.19305
  8996.22       0.928325        1.03732        1.18692
  8996.72       0.932455        1.01525        1.17904
  8997.22       0.940998       0.994368        1.17016
  8997.72       0.955871       0.974279        1.15987
  8998.2       0.976264       0.957127        1.14655
  8998.7       0.996766       0.944175        1.12867
  8999.2        1.0152       0.935011        1.11041
  8999.71        1.03187       0.927366        1.09366
  9000.21        1.04404       0.922369        1.07583
  9000.71        1.04898       0.920803        1.06094
  9001.22        1.04498       0.92239        1.05001
  9001.72        1.03302       0.92757        1.03937
  9002.22        1.01879       0.933302        1.02874
  9002.7        1.00588       0.938433        1.0187
  9003.2       0.991216       0.944202        1.01162
  9003.71       0.977185       0.950174        1.00506
  9004.21       0.96446       0.955972       0.998508
  9004.71       0.952175       0.963082       0.991944
  9005.22       0.941904       0.970628       0.990766
  9005.72       0.933566       0.977982       0.989978
  9006.23       0.926273       0.984753       0.98919
  9006.7       0.918942       0.991252       0.988448
  9007.2       0.911208       0.998097       0.990148
  9007.71       0.903923        1.00418       0.992202
  9008.21       0.89812        1.00823       0.994255
  9008.72       0.894706        1.00987       0.996313
  9009.22       0.894352        1.00933       0.996679
  9009.7       0.894238        1.00841       0.996912
  9010.2       0.895948        1.00618       0.99716
  9012.22       0.909486        1.00092       0.993521
  9014.21       0.931464       0.986955       0.987277
  9016.2       0.964874       0.949454       0.974559
  9018.22       0.997168       0.922911       0.954515
  9020.22        1.02936       0.905749       0.932252
  9022.21        1.05133       0.894775       0.917306
  9024.21        1.05322       0.889314       0.909809
  9026.2        1.02751       0.886624       0.911061
  9028.2       0.997728       0.887795       0.92103
  9030.23       0.967157       0.896074       0.938034
  9032.23       0.950893       0.910743       0.955866
  9034.22       0.943994       0.9283       0.974932
  9036.23       0.947128       0.943797       0.993477
  9038.2       0.955567       0.959237        1.01005
  9040.2       0.96228       0.977912        1.02363
  9042.2       0.962002       0.993794        1.03375
  9044.21       0.962063        1.00437        1.04256
  9046.21       0.969687        1.00393        1.04968
  9048.22       0.979864       0.99541        1.05272
  9050.2       0.983435       0.989307        1.05077
  9052.21       0.984505       0.987255        1.04513
  9054.22       0.990546       0.987847        1.03782
  9056.23        1.00203       0.988164        1.03147
  9058.21        1.01467       0.986205        1.02557
  9060.22        1.02305       0.984239        1.02047
  9062.2        1.0311       0.984551        1.01562
  9064.22        1.03985       0.987699        1.01124
  9066.2        1.05124       0.992352        1.00779
  9068.22        1.06313       0.998152        1.00488
  9070.2        1.06835        1.00319        1.00147
  9072.22        1.06429        1.00753       0.998349
  9074.21        1.0531        1.01078       0.995617
  9076.2        1.03443        1.01306       0.993433
  9078.22        1.01889        1.01517       0.992891
  9080.22        1.00383        1.01665       0.993843
  9082.21       0.991201        1.01639       0.992191
  9084.2       0.981636        1.01405       0.990734
  9086.23       0.976165        1.00894       0.989443
  9088.22       0.972037        1.00226       0.987984
  9090.22       0.961029       0.992499       0.987648
  9092.22       0.949877       0.984433       0.987965
  9094.21       0.938143       0.975399       0.987863
  9096.21       0.932281       0.968487       0.987501
  9098.21       0.933302       0.962267       0.987292
  9100.22       0.941196       0.957997       0.986425
  9102.22       0.953023       0.955997       0.985444
  9104.22       0.968572       0.955565       0.984826
  9106.22       0.980258       0.958331       0.983973
  9108.2       0.991836       0.962072       0.984846
  9110.21       0.99952       0.966865       0.98748
  9112.21        1.00376       0.973683       0.988112
  9114.22        1.00436       0.97915       0.988155
  9116.2        1.00389       0.983674       0.986779
  9118.21        1.00702       0.986206       0.987803
  9120.22        1.01483       0.98827       0.98929
  9122.2        1.03004       0.989764       0.991581
  9124.21        1.04826       0.991771       0.99591
  9126.2        1.07053       0.992876        1.00183
  9128.21        1.08377       0.994159        1.00515
  9130.2        1.08988       0.995468        1.00793
  9132.21        1.0891       0.996897        1.01033
  9134.2        1.08427       0.999245        1.01117
  9136.22        1.07757        1.00229        1.01194
  9138.21        1.07028        1.00556        1.01124
  9140.2        1.05815        1.00771        1.01089
  9142.22        1.04553        1.00848        1.01056
  9144.21        1.0277        1.00817        1.00988
  9146.2        1.0112        1.00679        1.00861
  9148.2       0.991374        1.00484        1.00856
  9150.22       0.973438        1.0031        1.00819
  9152.22       0.956268        1.00094        1.00874
  9154.22       0.940212       0.998974        1.00855
  9156.21       0.930837       0.997521        1.00667
  9158.21       0.927173       0.99614        1.00392
  9160.21       0.930643       0.995883        1.00136
  9162.21       0.941824       0.995521       0.998899
  9164.21       0.955025       0.996098       0.997959
  9166.21       0.971807       0.99702       0.995756
  9168.22       0.986868       0.997961       0.9919
  9170.22       0.999553       0.998841       0.989077
  9172.23        1.00796       0.999628       0.987971
  9174.2        1.01297        1.00035       0.987917
  9176.21        1.01522        1.00108       0.98709
  9178.22        1.01457        1.002       0.988385
  9180.22        1.01281        1.00269       0.989513
  9182.2        1.01137        1.00363       0.992176
  9184.21        1.01007        1.00398       0.994043
  9186.23        1.01018        1.00459       0.996701
  9188.21        1.00942        1.00489       0.997523
  9190.22        1.00897        1.00457       0.997721
  9192.2        1.00685        1.00434       0.996775
  9194.22        1.00435        1.00409       0.996721
  9196.21        1.00417        1.00379       0.995772
  9198.22        1.00803        1.00286       0.99378
  9200.21        1.01442        1.00257       0.993976
  9202.2        1.02518        1.00174       0.993261
  9204.22        1.03511        1.00132       0.993679
  9206.21        1.04354        1.00003       0.99336
  9208.2        1.0474       0.999085       0.99321
  9210.22        1.0489       0.997979       0.992535
  9212.22        1.04877       0.996971       0.992172
  9214.21        1.04698       0.996068       0.993043
  9216.2        1.04369       0.995125       0.995342
  9218.2        1.03964       0.99462       0.996937
  9220.2        1.0323       0.993681       0.998938
  9222.23        1.02501       0.993646        1.00058
  9224.22        1.01551       0.993493        1.00141
  9226.22        1.00696       0.993697        1.0023
  9228.22       0.996928       0.993623        1.00271
  9230.23       0.989337       0.99401        1.00182
  9232.2       0.981831       0.994453        1.00142
  9234.2       0.976236       0.99462        1.00161
  9236.2       0.973476       0.994639        1.00095
  9238.21       0.972051       0.995487       0.999952
  9240.22       0.972929       0.996091        1
  9242.22       0.974981       0.996706       0.999752
  9244.2       0.97703       0.997581        1.00006
  9246.21       0.979066       0.997915        1.00053
  9248.22       0.980263       0.998737        1.00089
  9250.2       0.981186       0.998663        1.00193
  9252.21       0.982482       0.999766        1.003
  9254.22       0.984197       0.999463        1.00391
  9256.2       0.985702       0.999972        1.00432
  9258.22       0.987342        1.00002        1.00471
  9260.2       0.989463        1.00042        1.0048
  9262.22       0.991941        1.00098        1.0045
  9264.21       0.994927        1.00123        1.00429
  9266.22       0.997632        1.00173        1.00386
  9268.21        1.00074        1.00209        1.00338
  9270.2        1.00291        1.00275        1.00265
  9272.22        1.00587        1.00217        1.00139
  9274.21        1.00779        1.00255        1.00033
  9276.2        1.0093        1.00235       0.999453
  9278.2        1.01098        1.00265       0.998921
  9280.22        1.01234        1.00196       0.998613
  9282.22        1.01385        1.00177       0.998679
  9284.21        1.01509        1.00184       0.99891
  9286.21        1.01631        1.00148       0.999035
  9288.2        1.01751        1.00124       0.999016
  9290.2        1.01864        1.00112       0.999339
  9292.2        1.01971        1.00113       0.999525
  9294.2        1.02009        1.00089       0.999398
  9296.2        1.02058        1.00099       0.999428
  9298.2        1.01995        1.00094       0.99946
  9300.21        1.01848        1.00104       0.999645
  9302.21        1.01563        1.00076       0.999564
  9304.22        1.01376        1.00081       0.999492
  9306.22        1.01053        1.00079       0.998765
  9308.2        1.00801        1.00075       0.998235
  9310.2        1.00423        1.00047       0.997825
  9312.21        1.00164        1.00059       0.997475
  9314.22       0.998667        1.0005       0.996734
  9316.2       0.996093        1.0004       0.996002
  9318.21       0.994453        1.00031       0.99586
  9320.22       0.993332        1.00024       0.995838
  9322.2       0.993014        1.00031       0.996131
  9324.22       0.992842        1.00001       0.996374
  9326.2       0.993105        1.00016       0.996826
  9328.22       0.99302        1.00002       0.997204
  9330.2       0.992818        1.00025       0.997739
  9332.22       0.991362       0.999976       0.998045
  9334.21       0.989921        1.00011       0.998341
  9336.23       0.987149        1.0001       0.998277
  9338.22       0.98532        1.00028       0.998355
  9340.2       0.983094        1.00008       0.998002
  9342.23       0.981895        1.00009       0.998031
  9344.22       0.98183       0.999987       0.998056
  9346.21       0.982675        1.00007       0.997644
  9348.2       0.983885       0.999956       0.997216
  9350.2       0.985199       0.99987       0.99724
  9352.23       0.986077        1.00006       0.997648
  9354.22       0.986569       0.999894       0.997448
  9356.22       0.98757       0.99993       0.997345
  9358.22       0.988461       0.999741       0.997436
  9360.22       0.989695       0.999943       0.997977
  9362.22       0.990713       0.999568       0.998214
  9364.22       0.991795       0.999752       0.999003
  9366.22       0.99304       0.999379       0.99946
  9368.22       0.994415       0.999133       0.999786
  9370.22       0.995559       0.998573        1.00025
  9372.23       0.996577       0.998874        1.00118
  9374.2       0.997595       0.99864        1.00136
  9376.21       0.998749       0.99881        1.00139
  9378.21        1.00004       0.998714        1.00158
  9380.22        1.00085       0.999076        1.00261
  9382.2        1.0019       0.998835        1.00326
  9384.21        1.00269       0.998582        1.00334
  9386.22        1.00353       0.998582        1.00319
  9388.2        1.0043       0.9982        1.00304
  9390.21        1.00511       0.998219        1.00317
  9392.22        1.00579       0.997886        1.00305
  9394.21        1.006       0.998489        1.00353
  9396.22        1.00664       0.998004        1.00335
  9398.21        1.00694       0.998156        1.00314
  9400.22        1.00614       0.998065        1.00269
  9402.21        1.006       0.998247        1.00271
  9404.2        1.00534       0.998156        1.00258
  9406.22        1.00425       0.998876        1.00303
  9408.21        1.0028       0.998926        1.00314
  9410.23        1.00166       0.998948        1.00323
  9412.22        1.00013       0.99878        1.00308
  9414.21       0.999073       0.998648        1.00273
  9416.2       0.998013       0.998431        1.00198
  9418.23       0.997397       0.998552        1.00177
  9420.22       0.99655       0.999003        1.00197
  9422.22       0.99617       0.999423        1.00198
  9424.21       0.996419       0.99904        1.00118
  9426.21       0.996252       0.999339        1.00071
  9428.21       0.996246       0.999571        1.0008
  9430.21       0.996145       0.999728        1.00044
  9432.21       0.996233       0.999952        1.00005
  9434.21       0.995985        1.00018       0.999424
  9436.21       0.996152        1.00042       0.999474
  9438.21       0.995494        1.00044       0.998832
  9440.21       0.995397        1.00062       0.999123
  9442.22       0.994676        1.0007       0.999534
  9444.22       0.994499        1.00089       0.999884
  9446.2       0.993361        1.00094       0.999208
  9448.2       0.992992        1.00108       0.99931
  9450.21       0.991953        1.00109       0.999172
  9452.22       0.991748        1.00141       0.999375
  9454.2       0.991008        1.00125       0.999381
  9456.21       0.991073        1.00146       0.999416
  9458.22       0.99097        1.00139       0.999335
  9460.2       0.991183        1.00141       0.999625
  9462.21       0.991045        1.00129       0.999898
  9464.23       0.991048        1.0014       0.999962
  9466.21       0.991004        1.00119        1.00006
  9468.22       0.991004        1.00111        1.00001
  9470.21       0.991058        1.00094        1.00049
  9472.23       0.991199        1.00102        1.00127
  9474.21       0.991415        1.00105        1.00183
  9476.2       0.99185        1.00092        1.00201
  9478.22       0.992217        1.00082        1.00191
  9480.21       0.992847        1.00085        1.00175
  9482.2       0.993545        1.00077        1.00171
  9484.22       0.993758        1.00075        1.00165
  9486.22       0.994705        1.00076        1.00167
  9488.21       0.995418        1.00068        1.00145
  9490.2       0.996098        1.0008        1.00145
  9492.23       0.996796        1.00059        1.00118
  9494.22       0.997352        1.00071        1.00108
  9496.22       0.998216        1.00069        1.00087
  9498.22       0.998849        1.00086        1.00104
  9500.21       0.999499        1.00078        1.00081
  9502.21        1.00003        1.00095        1.00061
  9504.21        1.00071        1.00089        1.00032
  9506.21        1.00108        1.001        1.00015
  9508.21        1.00101        1.00097        1.00019
  9510.22        1.00102        1.0011        1.00055
  9512.22        1.0006        1.00108        1.00058
  9514.22        1.00066        1.00137        1.00086
  9516.2        1.00047        1.00125        1.00062
  9518.2       0.999996        1.0016       0.999934
  9520.21       0.99943        1.00158       0.999431
  9522.22       0.998882        1.00185       0.999027
  9524.23       0.997871        1.00167       0.998806
  9526.2       0.997452        1.00183       0.998968
  9528.21       0.996865        1.00187       0.998642
  9530.23       0.996738        1.00214       0.998582
  9532.2       0.996052        1.00194       0.998432
  9534.22       0.996079        1.00194       0.998714
  9536.2       0.995785        1.00198       0.998992
  9538.21       0.995918        1.00202       0.999215
  9540.2       0.995722        1.00209       0.999032
  9542.21       0.995697        1.00229       0.999637
  9544.2       0.995648        1.00201        1.00019
  9546.22       0.995626        1.00267        1.00034
  9548.2       0.995588        1.00257        1.00044
  9550.22       0.995794        1.00232        1.00061
  9552.21       0.995754        1.00226        1.00112
  9554.2       0.996161        1.00242        1.00151
  9556.23       0.996503        1.00193        1.00112
  9558.22       0.996637        1.00179        1.00109
  9560.21       0.996636        1.00159        1.00124
  9562.2       0.997        1.00132        1.00131
  9564.23       0.997172        1.00115        1.00147
  9566.22       0.997083        1.00125        1.00164
  9568.22       0.99725        1.00126        1.00177
  9570.21       0.997549        1.00075        1.00188
  9572.21       0.997298        1.00093        1.00158
  9574.21       0.99786        1.00086        1.00142
  9576.21       0.997879        1.00069        1.00155
  9578.21       0.998071        1.00075        1.00185
  9580.21       0.998169        1.00042        1.00211
  9582.21       0.998581       0.999931        1.00236
  9584.21       0.99887       0.999369        1.00253
  9586.22       0.99954       0.998443        1.00273
  9588.22       0.999547       0.998451        1.00237
  9590.23       0.999899       0.998658        1.00195
  9592.2        1.001       0.997175        1.00189
  9594.21        1.00134       0.997101        1.00176
  9596.21        1.0013       0.997428        1.0017
  9598.22        1.00137       0.99813        1.00182
  9600.2        1.00248       0.997222        1.00166
  9602.21        1.00285       0.997096        1.00117
  9604.22        1.00338       0.996767        1.00091
  9606.2        1.00352       0.99681        1.00083
  9608.21        1.00375       0.997074        1.00077
  9610.23        1.00451       0.996166        1.0008
  9612.21        1.00478       0.996309        1.00025
  9614.23        1.00491       0.99664        1.00035
  9616.21        1.00498       0.99658        1.00052
  9618.23        1.00504       0.996766        1.00049
  9620.21        1.00504       0.997075        1.00034
  9622.2        1.0053       0.997139        1.00042
  9624.22        1.00583       0.997179       0.999777
  9626.21        1.00518       0.997795       0.999558
  9628.2        1.00591       0.997591       0.999779
  9630.22        1.00561       0.99805       0.999756
  9632.21        1.00586       0.998144       0.999413
  9634.2        1.00593       0.998308       0.999041
  9636.23        1.00568       0.998521       0.998661
  9638.22        1.00617       0.998431       0.998943
  9640.21        1.00586       0.998839       0.998598
  9642.21        1.00579       0.999135       0.998014
  9644.2        1.00506       0.999663       0.997744
  9646.2        1.00457        1.00011       0.997794
  9648.2        1.00442        1.0003       0.997993
  9650.2        1.00462        1.00034       0.997783
  9652.2        1.00408        1.00083       0.997657
  9654.2        1.00435        1.00075       0.997509
  9656.2        1.00388        1.00113       0.997182
  9658.2        1.00223        1.00244       0.997167
  9660.2        1.00282        1.00203       0.997163
  9662.21        1.00302        1.00224       0.997292
  9664.21        1.00307        1.00229       0.997124
  9666.22        1.00315        1.00245       0.997011
  9668.22        1.00309        1.00231       0.996648
  9670.2        1.00341        1.00236       0.996298
  9672.2        1.00324        1.00238       0.995575
  9674.21        1.00284        1.00288       0.995347
  9676.22        1.0024        1.0031       0.995456
  9678.2        1.002        1.00346       0.995443
  9680.21        1.00237        1.00332       0.99529
  9682.23        1.00236        1.00349       0.996133
  9684.2        1.00301        1.00314       0.996011
  9686.22        1.00305        1.00325       0.995478
  9688.2        1.00333        1.00308       0.995583
  9690.22        1.00375        1.00318       0.995496
  9692.2        1.00365        1.00309       0.995103
  9694.22        1.00408        1.00326       0.99491
  9696.2        1.00365        1.00333       0.994521
  9698.22        1.00418        1.00341       0.994153
  9700.21        1.0042        1.00341       0.993851
  9702.2        1.0049        1.00344       0.994112
  9704.22        1.005        1.00353       0.994544
  9706.21        1.00535        1.00365       0.995066
  9708.2        1.0051        1.00374       0.995082
  9710.22        1.00531        1.00394       0.995664
  9712.22        1.00506        1.00403       0.995752
  9714.21        1.00512        1.00432       0.996189
  9716.2        1.00508        1.00431       0.996858
  9718.2        1.00535        1.00456       0.999685
  9720.23        1.00547        1.00473        1.00148
  9722.22        1.00558        1.00498        1.00167
  9724.22        1.00573        1.00505        1.00248
  9726.22        1.00567        1.00534        1.00232
  9728.22        1.00585        1.00535        1.00323
  9730.22        1.00576        1.0056        1.00284
  9732.22        1.00591        1.00554        1.00307
  9734.22        1.00622        1.00581        1.00447
  9736.22        1.00651        1.0059        1.00498
  9738.22        1.0064        1.00607        1.00482
  9740.23        1.00649        1.00618        1.00439
  9742.2        1.00695        1.00631        1.00413
  9744.2        1.00696        1.00644        1.00422
  9746.21        1.00702        1.0066        1.00442
  9748.22        1.0071        1.00652        1.00363
  9750.23        1.00736        1.00668        1.00357
  9752.2        1.00773        1.00682        1.0038
  9754.21        1.00805        1.0069        1.00467
  9756.22        1.00798        1.00697        1.00429
  9758.2        1.00815        1.0071        1.00478
  9760.21        1.00854        1.00721        1.00532
  9762.23        1.00881        1.00727        1.0051
  9764.21        1.00891        1.00731        1.00501
  9766.22        1.00884        1.00732        1.00458
  9768.2        1.00934        1.00748        1.00503
  9770.22        1.0091        1.00756        1.00431