File: data/pca/normalized_data.nor
# XDI/1.0 Demeter/0.9.26
# Demeter.output_filetype: multicolumn normalized mu(E)
# Element.symbol: Ti
# Element.edge: K
# Column.1: energy eV
# Column.2: #2-1%-merge
# Column.3: #3-8%-merge
# Column.4: #4-19%-merge
# Column.5: #5-28%-merge
# Column.6: REF.published_on_AFM-38%-merge
# Column.7: #10-57%-merge
# Column.8: #6-65%-merge
# Column.9: #7-74%-merge
# Column.10: #9-84%-merge
# Column.11: #8-88%-merge
#------------------------
energy  #2-1%-merge  #3-8%-merge  #4-19%-merge  #5-28%-merge  REF.published_on_AFM-38%-merge  #10-57%-merge  #6-65%-merge  #7-74%-merge  #9-84%-merge  #8-88%-merge
  4899.99      -0.296176      -0.0247985  -0.0109047  -0.000656199   0.00145515   0.0012384   0.000856771   0.00120721   0.000951582   0.00184038
  4904      -0.0852228   0.000875698   0.000725208   0.000564875   0.000723553   0.000897839   0.000713577   0.000848986   0.000953009   0.00112559
  4908       0.0179164   0.00163848   0.000917721   0.000846702   0.00061119   0.000471259   0.000472467   0.000584405   0.000658904   0.000763537
  4912.01       0.0180533   0.00032796  -0.000177485   0.000407114   0.000274744   0.000180659   0.00021858   0.000305017   0.000259064   0.000172524
  4916       0.00791912  -0.000368516  -0.000314085  -0.000129341  -5.6882e-05  -7.94919e-05   9.65465e-05  -0.000138959  -8.20886e-05  -0.000152282
  4920      -0.00552347  -0.000399429  -0.000185127  -0.000882331  -0.000250327  -0.000254137  -0.000247504  -0.000316288  -0.000479866  -0.000355563
  4924       0.00888586  -0.000681536  -0.000879832  -0.000492592  -0.000630016  -0.000525369  -0.000779742  -0.000389273  -0.000652998  -0.000731963
  4927.99       0.000481381  -0.00221058  -0.000567945  -0.000587564  -0.000775942  -0.000717257  -0.000681296  -0.00103506  -0.000500104  -0.00084262
  4932.01      -0.00353844  -0.000558186  -0.00078505  -0.00031712  -0.000401842  -0.000695484  -0.000796382  -0.000731283  -0.000816447  -0.000928119
  4936      -0.00389276  -0.00179869  -0.000277038  -0.00046813  -0.00042318  -0.00113421  -0.000567757  -0.000361034  -0.000560212  -0.00101646
  4940.01       0.000264571  -0.000600377  -0.000795652  -0.000667076  -0.00055493  -0.000213043  -0.000211518  -0.00040721  -0.000371893  -0.000666157
  4944      -0.00117386   0.000247995   0.000598525  -3.9715e-05   0.000463186   0.000328977   2.3518e-05   0.000137425   0.000188307   0.000366127
  4948       0.00864471   0.00331026   0.00222606   0.0014391   0.00112437   0.00145817   0.00145931   0.00149657   0.00142921   0.00196037
  4952.01      -0.00343706   0.00618917   0.00511011   0.0032259   0.00462408   0.00331234   0.00351624   0.00443867   0.00433696   0.00554065
  4952.99       0.00139732   0.00688117   0.00729669   0.00665536   0.00574187   0.00483422   0.00590759   0.00570602   0.00631696   0.00739762
  4954       0.006054   0.0106752   0.00987446   0.00728866   0.00881063   0.0073331   0.00784487   0.00869015   0.0080719   0.00938577
  4955       0.00855913   0.0141547   0.0141731   0.011752   0.010971   0.0112628   0.0097597   0.011855   0.0116709   0.0139617
  4956       0.0180704   0.0231955   0.0237182   0.0164082   0.0205372   0.0179553   0.0167861   0.020956   0.0183987   0.0217915
  4957       0.0398753   0.0560886   0.0578466   0.0423752   0.0462245   0.0411628   0.0418433   0.0501327   0.0428102   0.0521208
  4958.01       0.132708       0.164791       0.171548       0.145914       0.148702       0.133997       0.132467       0.150857       0.138575       0.161532
  4958.99       0.298451       0.293102       0.293942       0.251694       0.282854       0.220591       0.216205       0.236838       0.219351       0.251046
  4960       0.23907       0.225047       0.247715       0.221558       0.236624       0.236038       0.237023       0.240541       0.240402       0.276493
  4961       0.116283       0.116171       0.139955       0.116584       0.124145       0.153528       0.155167       0.169577       0.186315       0.218234
  4962       0.0886495   0.105285       0.119821       0.0950359   0.108049       0.112847       0.116741       0.128717       0.143544       0.165881
  4963.01       0.125253       0.144026       0.15514       0.127092       0.142729       0.133459       0.138288       0.145505       0.147635       0.169859
  4963.99       0.166523       0.183811       0.186936       0.156855       0.171537       0.149308       0.149044       0.156283       0.145247       0.173489
  4965       0.205327       0.219182       0.223786       0.190374       0.198482       0.174459       0.172814       0.178239       0.159549       0.183885
  4966       0.21733       0.24053       0.252818       0.213776       0.22026       0.207398       0.203286       0.218112       0.194127       0.221739
  4967       0.266316       0.273173       0.295587       0.255778       0.259443       0.249399       0.248386       0.273854       0.251627       0.289873
  4967.99       0.304643       0.336148       0.36952       0.320291       0.326572       0.331739       0.33032       0.361744       0.34867       0.391412
  4969       0.391792       0.426796       0.463689       0.404971       0.432821       0.434471       0.436892       0.465875       0.454156       0.505037
  4970       0.486113       0.539494       0.572686       0.514628       0.532012       0.530874       0.539835       0.558887       0.548557       0.593655
  4971.01       0.618852       0.673509       0.697641       0.653435       0.657521       0.63482       0.637648       0.665266       0.639423       0.687034
  4972       0.780351       0.828896       0.83477       0.803411       0.786108       0.765727       0.760929       0.781291       0.747529       0.787757
  4973       0.947751       0.975372       0.960054       0.933413       0.926506       0.891602       0.896613       0.902811       0.86765       0.895175
  4974        1.07218        1.07506        1.04809        1.05608        1.02886       0.98393        1.0101       0.992708       0.97317       0.979694
  4974.99        1.10833        1.12231        1.09775        1.12591        1.10716        1.06892        1.08465        1.06962        1.06225        1.04622
  4976        1.11249        1.13028        1.11931        1.1528        1.13313        1.12744        1.13628        1.12223        1.12178        1.09294
  4977        1.10047        1.11896        1.11965        1.16335        1.13676        1.14947        1.16557        1.15378        1.15631        1.12544
  4977.99        1.08288        1.10678        1.11167        1.15384        1.11576        1.15229        1.17987        1.15329        1.16369        1.13014
  4979        1.08153        1.10814        1.1145        1.14622        1.10228        1.15529        1.18105        1.1502        1.16347        1.13102
  4980        1.1065        1.12093        1.11976        1.15404        1.09192        1.14358        1.16023        1.15132        1.15473        1.12154
  4980.99        1.11533        1.12309        1.11975        1.14533        1.09563        1.14066        1.15106        1.13158        1.13802        1.12173
  4982        1.13299        1.14309        1.12747        1.1618        1.09861        1.13073        1.13896        1.13006        1.12893        1.1027
  4983        1.15974        1.15974        1.13362        1.16102        1.09604        1.12546        1.1356        1.11211        1.11558        1.09905
  4983.99        1.17794        1.17427        1.14221        1.17531        1.11495        1.12827        1.13007        1.12212        1.11748        1.09346
  4985        1.18758        1.18681        1.15382        1.1723        1.14832        1.13721        1.14386        1.12446        1.11719        1.09216
  4986.01        1.19743        1.1911        1.15236        1.19577        1.15541        1.14105        1.15657        1.13033        1.12206        1.09568
  4987        1.192        1.19145        1.15635        1.21513        1.16447        1.15307        1.15753        1.13353        1.12562        1.10676
  4988        1.18291        1.19101        1.15562        1.18925        1.17028        1.15219        1.15495        1.13962        1.13908        1.11296
  4988.99        1.19038        1.18425        1.15228        1.21059        1.17027        1.15252        1.17048        1.14617        1.14085        1.11595
  4990        1.17798        1.17755        1.15143        1.18064        1.16962        1.14937        1.16737        1.14198        1.13723        1.10929
  4991.01        1.16775        1.16846        1.14407        1.17281        1.15731        1.15272        1.16084        1.14284        1.14286        1.11217
  4992        1.16135        1.1597        1.13203        1.16845        1.14635        1.14161        1.15197        1.13202        1.12941        1.1095
  4993        1.14453        1.14478        1.12448        1.15814        1.13491        1.12881        1.14035        1.12473        1.10861        1.10041
  4994        1.14543        1.12636        1.10839        1.14176        1.12176        1.10501        1.12451        1.10345        1.1091        1.08459
  4995        1.11832        1.11393        1.09439        1.10671        1.10785        1.09802        1.10695        1.08696        1.08572        1.06903
  4996        1.09741        1.08665        1.07311        1.08701        1.07825        1.0798        1.07688        1.07192        1.06184        1.05799
  4997        1.06566        1.06889        1.05853        1.06377        1.05596        1.04771        1.06189        1.04518        1.05982        1.04117
  4997.99        1.0635        1.06161        1.04816        1.0453        1.04282        1.04575        1.04974        1.03856        1.04221        1.03179
  4999        1.0548        1.0471        1.03661        1.04454        1.03985        1.02725        1.04088        1.02179        1.0258        1.02412
  4999.99        1.02563        1.02033        1.01823        1.012        1.01798        1.01266        1.01521        1.00817        1.00816        1.00354
  5001       0.994137       0.997063       0.999431       0.997459       0.996183       0.987502       0.991874       0.98742       0.982624       0.983688
  5001.99       0.985932       0.982923       0.98192       0.971542       0.971559       0.968642       0.971488       0.974578       0.967953       0.97586
  5003       0.963268       0.970533       0.969356       0.964271       0.958853       0.958703       0.963759       0.955975       0.959609       0.966907
  5004       0.970684       0.960027       0.960379       0.945475       0.944641       0.949557       0.947461       0.946698       0.942589       0.960209
  5005       0.957185       0.94857       0.952606       0.949061       0.941358       0.94549       0.943103       0.939658       0.941972       0.950285
  5006       0.952024       0.944031       0.950889       0.947408       0.929842       0.923175       0.936521       0.936023       0.937035       0.950663
  5007       0.941142       0.941035       0.946404       0.936477       0.933382       0.934678       0.946306       0.937597       0.931132       0.948669
  5008       0.946763       0.936489       0.943833       0.921156       0.928866       0.933632       0.937848       0.940192       0.94153       0.947849
  5009.01       0.936635       0.931568       0.938238       0.937114       0.928184       0.923741       0.934154       0.935774       0.930346       0.95001
  5010       0.924299       0.927668       0.934097       0.919463       0.921819       0.918893       0.926478       0.925177       0.924279       0.938408
  5010.99       0.913926       0.916958       0.928538       0.910531       0.924183       0.91878       0.91364       0.926288       0.925939       0.928906
  5012       0.897169       0.915765       0.921156       0.925422       0.912096       0.917724       0.911217       0.920419       0.916154       0.929812
  5013       0.90187       0.908796       0.919199       0.896152       0.909509       0.912842       0.911181       0.913527       0.921592       0.928507
  5014       0.916812       0.90803       0.918189       0.901702       0.905488       0.913253       0.903403       0.922704       0.910648       0.927109
  5015       0.898552       0.911115       0.916642       0.901002       0.924892       0.903312       0.918328       0.916401       0.915136       0.924461
  5015.99       0.912326       0.90902       0.916071       0.898697       0.909716       0.910356       0.913376       0.916843       0.91216       0.926946
  5017       0.908686       0.909712       0.917195       0.899312       0.919076       0.912648       0.920371       0.920873       0.91338       0.928734
  5018       0.909193       0.90969       0.920397       0.914874       0.909238       0.916321       0.929453       0.919256       0.913133       0.929276
  5019.01       0.910219       0.912033       0.91969       0.910469       0.918836       0.912822       0.916674       0.92019       0.921388       0.930659
  5020       0.911194       0.915776       0.922019       0.907065       0.921229       0.918876       0.9204       0.922506       0.922952       0.936651
  5022       0.904426       0.917221       0.927121       0.920618       0.928499       0.926863       0.924655       0.931091       0.93241       0.940455
  5023.99       0.91154       0.924642       0.936495       0.928318       0.933396       0.935138       0.941436       0.940629       0.92743       0.94979
  5026       0.923844       0.934811       0.942431       0.930878       0.938283       0.947719       0.947069       0.946746       0.951392       0.954617
  5028.01       0.935598       0.948382       0.953336       0.936559       0.954944       0.953881       0.953453       0.954444       0.958125       0.962385
  5030       0.945433       0.954648       0.96271       0.955217       0.966629       0.958245       0.96119       0.968195       0.962553       0.97026
  5032       0.954441       0.965026       0.97283       0.960831       0.975767       0.970441       0.985623       0.969961       0.971863       0.977948
  5034       0.975624       0.976303       0.981372       0.97146       0.971641       0.976692       0.980956       0.97906       0.986347       0.986341
  5036       0.974627       0.98578       0.98596       0.972145       0.983685       0.98602       0.98504       0.988059       0.989914       0.993736
  5038        1.00104       0.993095       0.995709        1.00786       0.99217       0.992911       0.996019       0.994113       0.993105       0.999381
  5040        1.00295       0.999209       0.999706        1.01356       0.994051        1.00025        1.00102       0.998911        1.00331       0.998464
  5042        1.00572        1.00881        1.00747        1.00731        1.0032        1.01218        1.01204        1.008        1.00764        1.00882
  5043.99        1.02052        1.01815        1.01652        1.02404        1.00697        1.01151        1.01258        1.01334        1.01838        1.00758
  5046        1.02792        1.02636        1.02212        1.01739        1.01606        1.02343        1.02001        1.02162        1.01958        1.01447
  5048        1.03393        1.02828        1.0253        1.03924        1.02351        1.03868        1.02379        1.02719        1.01938        1.01998
  5049.99        1.02562        1.03438        1.03157        1.02517        1.03256        1.03346        1.03047        1.02412        1.02855        1.0288
  5052        1.02271        1.03906        1.03442        1.03978        1.03534        1.04226        1.03307        1.03219        1.03402        1.02787
  5054        1.04811        1.03861        1.03524        1.04713        1.03352        1.03578        1.03673        1.03042        1.03207        1.02827
  5056        1.03765        1.04358        1.03173        1.05061        1.04975        1.04118        1.03504        1.03413        1.03548        1.02892
  5057.99        1.04266        1.03614        1.03258        1.05484        1.03548        1.03554        1.04195        1.03709        1.03643        1.02514
  5060.01        1.04599        1.03628        1.03445        1.0385        1.04499        1.03184        1.04076        1.03625        1.02932        1.02402
  5062.01        1.03558        1.03502        1.0302        1.02685        1.0349        1.0358        1.03217        1.03239        1.02598        1.02152
  5064        1.02401        1.02785        1.02661        1.02782        1.0396        1.02706        1.02669        1.02878        1.02295        1.02371
  5066        1.01801        1.02443        1.02212        1.03638        1.03484        1.02355        1.0291        1.02489        1.01825        1.01911
  5068        1.02392        1.01736        1.01518        1.01746        1.01975        1.02331        1.02023        1.01821        1.02312        1.01613
  5070        1.02802        1.01602        1.01423        1.01838        1.01782        1.02167        1.02181        1.01731        1.01507        1.01217
  5072        1.0077        1.01046        1.01134        1.02022        1.01851        1.01127        1.00897        1.01393        1.00982        1.00887
  5074       0.998693        1.0083        1.0078        1.01306        1.01291       0.997109        1.00406        1.00236        1.00476        1.01012
  5076        1.00478        1.00281        1.00205        1.00561        1.00622        1.00521       0.996752        1.00215        1.00903        1.00758
  5078        1.01081       0.99685       0.996461        1.01556        1.00097       0.996433        1.00269       0.99671       0.998271        1.00382
  5080.01        1.01318       0.996418       0.996506       0.997846       0.997764       0.987835       0.995854       0.996072       0.996406       0.996201
  5081.99       0.997403       0.994935       0.992746       0.99114       0.98637       0.991474       0.991832       0.993742       0.994725       0.998297
  5084       0.991471       0.985627       0.988833       0.990797       0.989062       0.987373       0.984643       0.992834       0.986965       0.995495
  5086        1.00781       0.986311       0.987088       0.987563       0.995685       0.986882       0.990945       0.990142       0.985932       0.996093
  5088       0.976304       0.986434       0.985644       0.989552       0.982367       0.974922       0.974925       0.986443       0.9883       0.985027
  5089.99       0.991923       0.983682       0.985952       0.981332       0.983347       0.982992       0.98007       0.987357       0.988134       0.985916
  5092       0.979101       0.98357       0.987898       0.973715       0.987677       0.974375       0.976844       0.982658       0.978593       0.982095
  5094       0.979873       0.981453       0.982769       0.990539       0.973483       0.986929       0.987254       0.980205       0.986302       0.978549
  5096.01       0.984808       0.9815       0.983624       0.991031       0.981581       0.986174       0.979943       0.979114       0.982823       0.981163
  5098       0.97639       0.98459       0.980005       0.98581       0.979052       0.977517       0.977107       0.976805       0.986185       0.986119
  5100       0.989723       0.98124       0.981908       0.983076       0.973387       0.978137       0.978539       0.987266       0.97944       0.979014
  5102       0.976598       0.98075       0.98197       0.979436       0.981505       0.988652       0.980412       0.986971       0.983222       0.981884
  5104       0.999324       0.984827       0.984694       0.973023       0.986533       0.986291       0.98525       0.986716       0.979927       0.983817
  5105.99       0.986133       0.985134       0.98426       0.977429       0.981678       0.981905       0.98087       0.989455       0.989445       0.986737
  5108       0.995007       0.982579       0.985726       0.983247       0.986014       0.985126       0.982576       0.982505       0.981333       0.991305
  5109.99       0.979877       0.983213       0.985987       0.977768       0.981399       0.993745       0.986214       0.988817       0.987336       0.99505
  5112       0.983749       0.985092       0.988989       0.983782       0.99074       0.990683       0.988422       0.992803       0.983789       0.989129
  5114       0.984535       0.990702       0.988526       0.989333       0.993943       0.995126       0.990457       0.987693       0.988252       0.997519
  5116.01       0.986424       0.989313       0.992542       0.985383       0.995338       0.988152       0.991241       0.993786       0.997103       0.997063
  5118       0.991612       0.990708       0.992623       0.990767       0.996782        1.00094        1.00049       0.995907        1.0041       0.996003
  5120       0.98193       0.991907       0.994572       0.995985       0.994366       0.996839       0.994508       0.995105        1.00087       0.998481
  5124       0.998552       0.996891       0.999866       0.990131        1.00026       0.992641        1.00028        1.00457        1.00204        1.00457
  5128        1.0007        1.0022        1.00138       0.999556       0.998727        1.00313        1.00058        1.00577        1.00806        1.00451
  5132.01        1.0068        1.00585        1.00394       0.996758        1.00275        1.00251        1.00948        1.00246        1.01105        1.00624
  5136        1.01735        1.00421        1.00491        1.00184        1.00874        1.00744        1.00571        1.00701        1.01042        1.00526
  5140        1.01543        1.005        1.00744        1.00188        1.00992        1.01121        1.00584        1.01002        1.00561        1.00718
  5144        1.00932        1.01072        1.00803        1.00369        1.00611        1.00901        1.00841        1.00575        1.00828       0.998966
  5148        1.00611        1.00768        1.00593       0.997311        1.00082        1.00943        1.00811        1.00384        1.00241        1.00631
  5152        1.01672        1.00712        1.00725        1.00747        1.01234       0.998919        1.00219        1.01       0.999683        1.00296
  5156.01        1.00886        1.01021        1.00687        1.00717        1.00114       0.998257        1.00303        1.00612        1.00216       0.998324
  5160       0.997983        1.00286        1.00655        1.00486        1.00596        1.00582        1.00319        1.00284        1.0007        1.00568
  5164        1.00881        1.0015        1.00336       0.998348        1.00885        1.01133       0.999124        1.00183       0.998731        1.00148
  5168        1.01388        1.00725       0.999672       0.996399        1.00099       0.999942       0.999602        1.00353       0.996146        1.00163
  5171.99        1.0041        1.00096       0.99777       0.994888       0.997477       0.993958        1.00363        1.00622       0.994038        1.00053
  5176.01       0.993642        1.00592        1.00913       0.998623        1.0009       0.996409       0.997741        1.00116        1.00244        1.00885
  5180       0.990706        1.00144       0.999168        1.00897        1.00596        1.00326        1.00289        1.00349       0.997906       0.997587
  5184        1.0167       0.99983       0.999746       0.992168       0.998231       0.995132        1.00661       0.995408       0.996623       0.996364
  5188.01       0.998381       0.997919       0.998652       0.99721       0.998241       0.998604       0.997398       0.992934       0.992541       0.995472
  5191.99       0.992402        1.00243       0.998513       0.998174       0.991016       0.996358        1.00132       0.987393        1.00544       0.995947
  5196       0.984914       0.99706       0.996014        1.00342       0.99888       0.994255        1.00091        1.0015       0.995012       0.999191
  5200.01        1.00237       0.995227       0.998087        1.00138       0.992341        1.00062        1.00393       0.993073       0.995815       0.999823
  5206.02       0.994682       0.996652        1.00034       0.998976       0.998685       0.993063       0.9961       0.999831        1.00295       0.996046
  5212.05       0.983274       0.993286       0.994667        1.00595       0.989149       0.996082        1.0005       0.997644       0.999132       0.993232
  5218.07       0.992171       0.995604       0.996604       0.990335       0.992878       0.998861       0.997666       0.998468       0.99235       0.997623
  5224.1       0.997107       0.997778       0.995255        1.00237       0.999391        1.00117        1.00134        1.00013       0.994715        1.00227
  5230.12       0.987925       0.999408       0.99734        1.00345       0.994632       0.993791       0.990447       0.997236       0.99357        1.00105
  5236.14       0.987068       0.998264        1.00071        1.00985        1.00075        1.00103        1.00054       0.994776        1.00175       0.995341
  5242.17       0.982486        1.0014        1.00078        1.00009        1.00391       0.998671        1.00279       0.993392       0.997977        1.00042
  5248.19        1.00582        1.00288        1.00076       0.996132       0.995296        1.00291       0.996942       0.996809        1.00252       0.998218
  5254.21       0.998432        1.00116        1.00075       0.993632       0.997003        1.00375       0.992332        1.00668        1.00246        1.00044
  5260.24       0.992017       0.99826        1.00169        1.00472        1.00607       0.997614        1.00483       0.998148        1.0071        1.00334
  5266.27       0.982135        1.00405        1.01877        1.02027       0.999251        1.00167        1.00318        1.00371       0.995962        1.00215
  5272.29       0.998743        1.00122        1.00261        1.00251        1.00445       0.999671        1.00508        1.00086        1.00233        1.00884
  5278.31       0.996638       0.99865        1.00262       0.998427       0.999344       0.999957       0.995784       0.99597        1.00316        1.00477
  5284.34        1.01265        1.00264        1.0023        1.00612       0.998372       0.992897        1.00524        1.00567        1.00343        1.00056
  5290.36        1.00527       1        1.00209       0.996387       0.997        1.003        1.0057        1.00355        1.00129       0.997656
  5296.38        1.01096        1.00198       0.99946       0.996562        1.00584        1.00087       0.99805        1.00215       0.999547       0.999693
  5302.41       0.997642        1.00392        1.00316        1.00387        1.00244        1.00526       0.993501        1.00437       0.997043       0.999822
  5308.43        1.00066        1.00324       0.999985       0.998075        1.00507        1.00448        1.00226        1.00244        1.00103        1.00802
  5314.46        1.00576       0.998882        1.00208        1.00865        1.00948        1.0083        1.00883       0.999846        1.00071       0.998263
  5320.48       0.988439        1.00217       0.999881       0.997449       0.998745        1.00282        1.00437       0.996593       0.996583        1.00219
  5326.51        1.01428        1.00135       0.999365       0.985722       0.994646       0.998457       0.997545       0.999839       0.989913        1.00087
  5332.54       0.999927       0.999654       0.999806        1.00387        1.00088        1.00863        1.00726        1.00322       0.998932       0.993237
  5338.55       0.992931       0.998384        1.00133        1.00013        1.0041       0.995829        1.00333       0.9987        1.0023        1.00204
  5344.57       0.994669       0.9966        1.00094        1.00242       0.995617        1.0073        1.00104        1.0024       0.997109        1.00331
  5350.61       0.986992       0.998083        1.00058        1.00265        1.00396        1.00372        1.01        1.00548        1.00301        1.00324
  5356.62       0.9927        1.00024        1.00008        1.00415        1.00237       0.989473       0.991247       0.99632        1.00189       0.996903
  5362.65        1.01679        1.00024       0.999915        1.00177        1.00141       0.994552       0.995791        1.00116        1.00084       0.993228
  5368.68       0.99533       0.998385       0.99758        1.0027        1.01224       0.997421       0.999651       0.999041       0.993434        1.00173
  5374.7       0.992946       0.998688       0.999794       0.99898       0.998068       0.999576        1.00739       0.992222        1.00268       0.998295
  5380.72        1.01097       0.999499       0.998614        1.00138       0.996105        1.00588       0.995207       0.998739       0.995232       0.99962
  5386.75        1.00956       0.998636       0.999024       0.997425       0.996296        1.00097       0.996215        1.00622        1.00529       0.999129
  5392.78        1.00106       0.999622       0.998055        1.00381       0.993919       0.988442       0.996228       0.99946       0.993121        1.00475
  5398.79        1.00969       0.99798       0.996182       0.998979       0.996088       0.997907        1.0022        1.00203        1.00386       0.99775
  5404.81        1.00145       0.996326       0.995061       0.998629       0.992829        1.00218       0.999112       0.999213        1.00532       0.996096
  5410.85        1.00206       0.998411       0.996582       0.981485       0.991271       0.993082        1.00016       0.99621       0.998163       0.996291
  5416.86       0.999344       0.996409       0.995635        1.00307       0.992163       0.997108       0.997728        1.00032       0.997573       0.999684
  5422.89        1.01154       0.995831       0.995561       0.997483       0.98537       0.996474       0.997957        1.00028        1.00008        1.00191
  5428.92       0.996603       0.996329       0.996265       0.988669       0.992528        1.00235        1.00037        1.00598        1.00141       0.989852
  5434.94        1.00984       0.992224       0.994176       0.990923       0.997614        1.0055       0.990335        1.00034        1.00549       0.995036
  5440.96        1.00208       0.995031       0.991358       0.997699       0.995085       0.996661       0.99211       0.991275       0.996845       0.995335
  5446.99       0.99879       0.992858       0.994858       0.981452        1.00178       0.998369       0.995498       0.994497        1.00321       0.99616
  5450        1.01682       0.995418       0.993459       0.996245       0.999533       0.995586       0.995171       0.99432       0.991227       0.995222